{
    "resourceType": "Parameters",
    "parameter": [
        {
            "id": "df78fdba-ada9-4bd4-856a-2ad0c890657d",
            "name": "return",
            "resource": {
                "resourceType": "Bundle",
                "id": "3f6081a6-bb3d-422e-b046-e1819ee61fc9",
                "meta": {
                    "profile": [
                        "http://hl7.org/fhir/us/davinci-deqm/StructureDefinition/gaps-bundle-deqm"
                    ]
                },
                "identifier": {
                    "system": "urn:ietf:rfc:3986",
                    "value": "urn:uuid:a6336571-c4d2-4d13-aa90-e1eb2515670e"
                },
                "type": "document",
                "timestamp": "2021-07-07T11:40:27.378+00:00",
                "entry": [
                    {
                        "resource": {
                            "resourceType": "Composition",
                            "id": "bc682313-f25f-4772-ac63-a0c85dd22607",
                            "meta": {
                                "profile": [
                                    "http://hl7.org/fhir/us/davinci-deqm/StructureDefinition/gaps-composition-deqm"
                                ]
                            },
                            "status": "final",
                            "type": {
                                "coding": [
                                    {
                                        "system": "http://loinc.org",
                                        "code": "96315-7",
                                        "display": "Gaps in Care Report"
                                    }
                                ]
                            },
                            "subject": {
                                "reference": "Patient/Patient/numer-EXM130"
                            },
                            "date": "2021-07-07T11:40:27+00:00",
                            "title": "Care Gap Report for Patient/Patient/numer-EXM130",
                            "section": [
                                {
                                    "title": "Colorectal Cancer Screening",
                                    "focus": {
                                        "reference": "MeasureReport/e2b6340c-1a5f-4976-a870-8f311caf5c27"
                                    },
                                    "entry": [
                                        {
                                            "reference": "DetectedIssue/d81c9472-ab42-4591-9043-3516a6376ad6"
                                        }
                                    ]
                                }
                            ]
                        }
                    },
                    {
                        "resource": {
                            "resourceType": "MeasureReport",
                            "id": "e2b6340c-1a5f-4976-a870-8f311caf5c27",
                            "meta": {
                                "profile": [
                                    "http://hl7.org/fhir/us/davinci-deqm/StructureDefinition/indv-measurereport-deqm"
                                ]
                            },
                            "contained": [
                                {
                                    "resourceType": "Observation",
                                    "id": "8fb97d2c-85d2-4070-8676-a74cdab89992",
                                    "extension": [
                                        {
                                            "url": "http://hl7.org/fhir/StructureDefinition/cqf-measureInfo",
                                            "extension": [
                                                {
                                                    "url": "measure",
                                                    "valueCanonical": "http://hl7.org/fhir/us/cqfmeasures/Measure/measure-EXM130-7.3.000"
                                                },
                                                {
                                                    "url": "populationId",
                                                    "valueString": "sde-race"
                                                }
                                            ]
                                        }
                                    ],
                                    "status": "final",
                                    "code": {
                                        "text": "sde-race"
                                    },
                                    "valueCodeableConcept": {
                                        "coding": [
                                            {
                                                "system": "urn:oid:2.16.840.1.113883.6.238",
                                                "code": "2028-9",
                                                "display": "Asian"
                                            }
                                        ]
                                    }
                                },
                                {
                                    "resourceType": "Observation",
                                    "id": "b379a5aa-e46e-4f43-b269-a7e16172b006",
                                    "extension": [
                                        {
                                            "url": "http://hl7.org/fhir/StructureDefinition/cqf-measureInfo",
                                            "extension": [
                                                {
                                                    "url": "measure",
                                                    "valueCanonical": "http://hl7.org/fhir/us/cqfmeasures/Measure/measure-EXM130-7.3.000"
                                                },
                                                {
                                                    "url": "populationId",
                                                    "valueString": "sde-ethnicity"
                                                }
                                            ]
                                        }
                                    ],
                                    "status": "final",
                                    "code": {
                                        "text": "sde-ethnicity"
                                    },
                                    "valueCodeableConcept": {
                                        "coding": [
                                            {
                                                "system": "urn:oid:2.16.840.1.113883.6.238",
                                                "code": "2135-2",
                                                "display": "Hispanic or Latino"
                                            }
                                        ]
                                    }
                                },
                                {
                                    "resourceType": "Observation",
                                    "id": "45b84eb5-b0cc-4f38-a3f5-e1fbda35bdf4",
                                    "extension": [
                                        {
                                            "url": "http://hl7.org/fhir/StructureDefinition/cqf-measureInfo",
                                            "extension": [
                                                {
                                                    "url": "measure",
                                                    "valueCanonical": "http://hl7.org/fhir/us/cqfmeasures/Measure/measure-EXM130-7.3.000"
                                                },
                                                {
                                                    "url": "populationId",
                                                    "valueString": "sde-sex"
                                                }
                                            ]
                                        }
                                    ],
                                    "status": "final",
                                    "code": {
                                        "text": "sde-sex"
                                    },
                                    "valueCodeableConcept": {
                                        "coding": [
                                            {
                                                "code": "M"
                                            }
                                        ]
                                    }
                                }
                            ],
                            "status": "complete",
                            "type": "individual",
                            "measure": "Measure/measure-EXM130-7.3.000",
                            "subject": {
                                "reference": "Patient/numer-EXM130"
                            },
                            "date": "2021-07-07T11:40:31+00:00",
                            "reporter": {
                                "reference": "Organization/organization-datareporter"
                            },
                            "period": {
                                "start": "2020-01-01T00:00:00+00:00",
                                "end": "2020-12-31T00:00:00+00:00"
                            },
                            "improvementNotation": {
                                "coding": [
                                    {
                                        "system": "http://terminology.hl7.org/CodeSystem/measure-improvement-notation",
                                        "code": "increase"
                                    }
                                ]
                            },
                            "group": [
                                {
                                    "id": "group-1",
                                    "population": [
                                        {
                                            "code": {
                                                "coding": [
                                                    {
                                                        "system": "http://terminology.hl7.org/CodeSystem/measure-population",
                                                        "code": "initial-population",
                                                        "display": "Initial Population"
                                                    }
                                                ]
                                            },
                                            "count": 1
                                        },
                                        {
                                            "code": {
                                                "coding": [
                                                    {
                                                        "system": "http://terminology.hl7.org/CodeSystem/measure-population",
                                                        "code": "numerator",
                                                        "display": "Numerator"
                                                    }
                                                ]
                                            },
                                            "count": 1
                                        },
                                        {
                                            "code": {
                                                "coding": [
                                                    {
                                                        "system": "http://terminology.hl7.org/CodeSystem/measure-population",
                                                        "code": "denominator",
                                                        "display": "Denominator"
                                                    }
                                                ]
                                            },
                                            "count": 1
                                        },
                                        {
                                            "code": {
                                                "coding": [
                                                    {
                                                        "system": "http://terminology.hl7.org/CodeSystem/measure-population",
                                                        "code": "denominator-exclusion",
                                                        "display": "Denominator Exclusion"
                                                    }
                                                ]
                                            },
                                            "count": 0
                                        }
                                    ],
                                    "measureScore": {
                                        "value": 1.0
                                    }
                                }
                            ],
                            "evaluatedResource": [
                                {
                                    "reference": "#8fb97d2c-85d2-4070-8676-a74cdab89992"
                                },
                                {
                                    "reference": "#b379a5aa-e46e-4f43-b269-a7e16172b006"
                                },
                                {
                                    "reference": "#45b84eb5-b0cc-4f38-a3f5-e1fbda35bdf4"
                                },
                                {
                                    "extension": [
                                        {
                                            "url": "http://hl7.org/fhir/us/davinci-deqm/StructureDefinition/extension-populationReference",
                                            "valueCodeableConcept": {
                                                "coding": [
                                                    {
                                                        "system": "http://teminology.hl7.org/CodeSystem/measure-population",
                                                        "code": "initial-population",
                                                        "display": "Initial Population"
                                                    }
                                                ]
                                            }
                                        }
                                    ],
                                    "reference": "Patient/numer-EXM130"
                                },
                                {
                                    "extension": [
                                        {
                                            "url": "http://hl7.org/fhir/us/davinci-deqm/StructureDefinition/extension-populationReference",
                                            "valueCodeableConcept": {
                                                "coding": [
                                                    {
                                                        "system": "http://teminology.hl7.org/CodeSystem/measure-population",
                                                        "code": "initial-population",
                                                        "display": "Initial Population"
                                                    }
                                                ]
                                            }
                                        }
                                    ],
                                    "reference": "Encounter/numer-EXM130-4"
                                },
                                {
                                    "extension": [
                                        {
                                            "url": "http://hl7.org/fhir/us/davinci-deqm/StructureDefinition/extension-populationReference",
                                            "valueCodeableConcept": {
                                                "coding": [
                                                    {
                                                        "system": "http://teminology.hl7.org/CodeSystem/measure-population",
                                                        "code": "numerator",
                                                        "display": "Numerator"
                                                    }
                                                ]
                                            }
                                        }
                                    ],
                                    "reference": "Procedure/numer-EXM130-1"
                                }
                            ]
                        }
                    },
                    {
                        "resource": {
                            "resourceType": "Patient",
                            "id": "numer-EXM130",
                            "meta": {
                                "versionId": "1",
                                "lastUpdated": "2021-07-06T20:30:55.384+00:00",
                                "source": "#1ddQwdQFNMN72UtC",
                                "profile": [
                                    "http://hl7.org/fhir/us/core/StructureDefinition/us-core-patient"
                                ]
                            },
                            "text": {
                                "status": "generated",
                                "div": "<div xmlns=\"http://www.w3.org/1999/xhtml\"><div class=\"hapiHeaderText\">Don <b>BLITZ </b></div><table class=\"hapiPropertyTable\"><tbody><tr><td>Identifier</td><td>999999992</td></tr><tr><td>Date of birth</td><td><span>01 January 1966</span></td></tr></tbody></table></div>"
                            },
                            "extension": [
                                {
                                    "url": "http://hl7.org/fhir/us/core/StructureDefinition/us-core-race",
                                    "extension": [
                                        {
                                            "url": "ombCategory",
                                            "valueCoding": {
                                                "system": "urn:oid:2.16.840.1.113883.6.238",
                                                "code": "2028-9",
                                                "display": "Asian"
                                            }
                                        }
                                    ]
                                },
                                {
                                    "url": "http://hl7.org/fhir/us/core/StructureDefinition/us-core-ethnicity",
                                    "extension": [
                                        {
                                            "url": "ombCategory",
                                            "valueCoding": {
                                                "system": "urn:oid:2.16.840.1.113883.6.238",
                                                "code": "2135-2",
                                                "display": "Hispanic or Latino"
                                            }
                                        }
                                    ]
                                }
                            ],
                            "identifier": [
                                {
                                    "use": "usual",
                                    "type": {
                                        "coding": [
                                            {
                                                "system": "http://terminology.hl7.org/CodeSystem/v2-0203",
                                                "code": "MR",
                                                "display": "Medical Record Number"
                                            }
                                        ]
                                    },
                                    "system": "http://hospital.smarthealthit.org",
                                    "value": "999999992"
                                }
                            ],
                            "name": [
                                {
                                    "family": "Blitz",
                                    "given": [
                                        "Don"
                                    ]
                                }
                            ],
                            "gender": "male",
                            "birthDate": "1966-01-01"
                        }
                    },
                    {
                        "resource": {
                            "resourceType": "Encounter",
                            "id": "numer-EXM130-4",
                            "meta": {
                                "versionId": "1",
                                "lastUpdated": "2021-07-06T20:30:55.384+00:00",
                                "source": "#1ddQwdQFNMN72UtC",
                                "profile": [
                                    "http://hl7.org/fhir/us/core/StructureDefinition/us-core-encounter"
                                ]
                            },
                            "status": "finished",
                            "class": {
                                "system": "http://terminology.hl7.org/CodeSystem/v3-ActCode",
                                "code": "AMB",
                                "display": "ambulatory"
                            },
                            "type": [
                                {
                                    "coding": [
                                        {
                                            "system": "http://www.ama-assn.org/go/cpt",
                                            "code": "99201",
                                            "display": "Office or other outpatient visit for the evaluation and management of a new patient, which requires these 3 key components: A problem focused history; A problem focused examination; Straightforward medical decision making. Counseling and/or coordination of care with other physicians, other qualified health care professionals, or agencies are provided consistent with the nature of the problem(s) and the patient's and/or family's needs. Usually, the presenting problem(s) are self limited or minor. Typically, 10 minutes are spent face-to-face with the patient and/or family."
                                        }
                                    ]
                                }
                            ],
                            "subject": {
                                "reference": "Patient/numer-EXM130"
                            },
                            "period": {
                                "start": "2020-05-30T00:00:00.0",
                                "end": "2020-05-31T00:00:00.0"
                            }
                        }
                    },
                    {
                        "resource": {
                            "resourceType": "Procedure",
                            "id": "numer-EXM130-1",
                            "meta": {
                                "versionId": "1",
                                "lastUpdated": "2021-07-06T20:30:55.384+00:00",
                                "source": "#1ddQwdQFNMN72UtC",
                                "profile": [
                                    "http://hl7.org/fhir/us/core/StructureDefinition/us-core-procedure"
                                ]
                            },
                            "status": "completed",
                            "code": {
                                "coding": [
                                    {
                                        "system": "http://www.ama-assn.org/go/cpt",
                                        "code": "44393",
                                        "display": "Colonoscopy through stoma; with ablation of tumor(s), polyp(s), or other lesion(s) not amenable to removal by hot biopsy forceps, bipolar cautery or snare technique"
                                    }
                                ]
                            },
                            "subject": {
                                "reference": "Patient/numer-EXM130"
                            },
                            "performedPeriod": {
                                "start": "2011-01-01T00:00:00-06:00",
                                "end": "2011-01-01T01:00:00-07:00"
                            }
                        }
                    },
                    {
                        "resource": {
                            "resourceType": "DetectedIssue",
                            "id": "d81c9472-ab42-4591-9043-3516a6376ad6",
                            "meta": {
                                "profile": [
                                    "http://hl7.org/fhir/us/davinci-deqm/StructureDefinition/gaps-detectedissue-deqm"
                                ]
                            },
                            "modifierExtension": [
                                {
                                    "url": "http://hl7.org/fhir/us/davinci-deqm/StructureDefinition/extension-gapStatus",
                                    "valueCodeableConcept": {
                                        "coding": [
                                            {
                                                "system": "http://hl7.org/fhir/us/davinci-deqm/CodeSystem/gaps-status",
                                                "code": "closed-gap"
                                            }
                                        ]
                                    }
                                }
                            ],
                            "status": "final",
                            "code": {
                                "coding": [
                                    {
                                        "system": "http://terminology.hl7.org/CodeSystem/v3-ActCode",
                                        "code": "CAREGAP",
                                        "display": "Care Gaps"
                                    }
                                ]
                            },
                            "patient": {
                                "reference": "Patient/Patient/numer-EXM130"
                            },
                            "evidence": [
                                {
                                    "detail": [
                                        {
                                            "reference": "MeasureReport/e2b6340c-1a5f-4976-a870-8f311caf5c27"
                                        }
                                    ]
                                }
                            ]
                        }
                    }
                ]
            }
        }
    ]
}